Time,gyro_accuracy,gyro_z,gyro_y,gyro_x,time
2023-05-12 10:26:21.094000000,0,0.607,-0.035,-0.423,0
2023-05-12 10:26:21.104050000,0,0.57,-0.027,-0.392,0.0100500000000466
2023-05-12 10:26:21.114050000,0,0.558,-0.019,-0.423,0.0200500000000466
2023-05-12 10:26:21.124000000,0,0.494,0.019,-0.431,0.03
2023-05-12 10:26:21.134050000,0,0.49,0.042,-0.378,0.0400500000000466
2023-05-12 10:26:21.144050000,0,0.468,0.072,-0.398,0.050050000000163
2023-05-12 10:26:21.154000000,0,0.4,0.066,-0.406,0.0600000000001164
2023-05-12 10:26:21.164050000,0,0.382,0.048,-0.384,0.0700500000000466
2023-05-12 10:26:21.174050000,0,0.349,0.029,-0.339,0.0800500000000466
2023-05-12 10:26:21.184050000,0,0.322,-0.009,-0.357,0.0900500000000466
2023-05-12 10:26:21.194050000,0,0.226,-0.031,-0.302,0.100050000000047
2023-05-12 10:26:21.204050000,0,0.179,-0.052,-0.289,0.110050000000047
2023-05-12 10:26:21.214050000,0,0.156,-0.033,-0.257,0.120050000000047
2023-05-12 10:26:21.224050000,0,0.115,-0.003,-0.201,0.130050000000047
2023-05-12 10:26:21.234050000,0,0.041,0.015,-0.207,0.140050000000047
2023-05-12 10:26:21.244050000,0,0.011,0.035,-0.197,0.150050000000047
2023-05-12 10:26:21.254050000,0,-0.015,0.058,-0.156,0.160050000000047
2023-05-12 10:26:21.264050000,0,-0.068,0.046,-0.115,0.170050000000163
2023-05-12 10:26:21.274050000,0,-0.101,0.025,-0.134,0.180050000000047
2023-05-12 10:26:21.284050000,0,-0.169,-0.003,-0.085,0.190050000000047
2023-05-12 10:26:21.294050000,0,-0.185,-0.027,-0.033,0.200050000000047
2023-05-12 10:26:21.304050000,0,-0.205,-0.042,-0.017,0.210050000000047
2023-05-12 10:26:21.314050000,0,-0.259,-0.039,-0.007,0.220050000000047
2023-05-12 10:26:21.324050000,0,-0.294,-0.029,0.007,0.230050000000047
2023-05-12 10:26:21.334050000,0,-0.302,0.003,0.08,0.240050000000047
2023-05-12 10:26:21.344050000,0,-0.304,0.013,0.08,0.250050000000047
2023-05-12 10:26:21.354050000,0,-0.369,0.041,0.091,0.260050000000047
2023-05-12 10:26:21.364050000,0,-0.392,0.031,0.097,0.270050000000047
2023-05-12 10:26:21.374050000,0,-0.404,0.019,0.158,0.280050000000047
2023-05-12 10:26:21.384050000,0,-0.41,0.007,0.181,0.290050000000047
2023-05-12 10:26:21.394050000,0,-0.455,-0.015,0.179,0.300050000000163
2023-05-12 10:26:21.404050000,0,-0.478,-0.031,0.205,0.310050000000047
2023-05-12 10:26:21.414050000,0,-0.464,-0.029,0.236,0.320050000000047
2023-05-12 10:26:21.424050000,0,-0.472,-0.011,0.253,0.330050000000047
2023-05-12 10:26:21.434050000,0,-0.496,0.017,0.261,0.340050000000047
2023-05-12 10:26:21.444050000,0,-0.517,0.046,0.281,0.350050000000047
2023-05-12 10:26:21.454050000,0,-0.49,0.058,0.283,0.360050000000047
2023-05-12 10:26:21.464050000,0,-0.472,0.06,0.312,0.370050000000047
2023-05-12 10:26:21.474050000,0,-0.47,0.042,0.3,0.380050000000047
2023-05-12 10:26:21.484050000,0,-0.468,0.013,0.255,0.390050000000047
2023-05-12 10:26:21.494050000,0,-0.433,-0.013,0.316,0.400050000000047
2023-05-12 10:26:21.504050000,0,-0.392,-0.046,0.302,0.410050000000047
2023-05-12 10:26:21.514050000,0,-0.39,-0.037,0.283,0.420050000000163
2023-05-12 10:26:21.524050000,0,-0.361,-0.029,0.238,0.430050000000047
2023-05-12 10:26:21.534050000,0,-0.32,0.001,0.287,0.440050000000047
2023-05-12 10:26:21.544050000,0,-0.292,0.033,0.273,0.450050000000047
2023-05-12 10:26:21.554050000,0,-0.267,0.056,0.23,0.460050000000047
2023-05-12 10:26:21.564050000,0,-0.253,0.066,0.208,0.470050000000047
2023-05-12 10:26:21.574050000,0,-0.224,0.044,0.22,0.480050000000047
2023-05-12 10:26:21.584050000,0,-0.179,0.023,0.218,0.490050000000047
2023-05-12 10:26:21.594050000,0,-0.187,-0.007,0.207,0.500050000000047
2023-05-12 10:26:21.604050000,0,-0.164,-0.052,0.189,0.510050000000047
2023-05-12 10:26:21.614050000,0,-0.13,-0.078,0.171,0.520050000000047
2023-05-12 10:26:21.624050000,0,-0.072,-0.07,0.173,0.530050000000047
2023-05-12 10:26:21.634050000,0,-0.06,-0.054,0.136,0.540050000000047
2023-05-12 10:26:21.644050000,0,-0.046,-0.007,0.105,0.550050000000163
2023-05-12 10:26:21.654050000,0,0.021,0.031,0.085,0.560050000000047
2023-05-12 10:26:21.664050000,0,0.054,0.064,0.08,0.570050000000047
2023-05-12 10:26:21.674050000,0,0.078,0.072,0.054,0.580050000000047
2023-05-12 10:26:21.684050000,0,0.091,0.062,0.021,0.590050000000047
2023-05-12 10:26:21.694050000,0,0.109,0.021,0.025,0.600050000000047
2023-05-12 10:26:21.704050000,0,0.164,-0.011,0.031,0.610050000000047
2023-05-12 10:26:21.714050000,0,0.166,-0.05,-0.009,0.620050000000047
2023-05-12 10:26:21.724050000,0,0.171,-0.068,-0.052,0.630050000000047
2023-05-12 10:26:21.734050000,0,0.191,-0.06,-0.062,0.640050000000047
2023-05-12 10:26:21.744050000,0,0.222,-0.035,-0.041,0.650050000000047
2023-05-12 10:26:21.754050000,0,0.203,0.003,-0.06,0.660050000000047
2023-05-12 10:26:21.764050000,0,0.218,0.048,-0.105,0.670050000000163
2023-05-12 10:26:21.774050000,0,0.222,0.054,-0.113,0.680050000000047
2023-05-12 10:26:21.784050000,0,0.251,0.062,-0.093,0.690050000000047
2023-05-12 10:26:21.794050000,0,0.271,0.035,-0.14,0.700050000000047
2023-05-12 10:26:21.804050000,0,0.269,0.011,-0.154,0.710050000000047
2023-05-12 10:26:21.814050000,0,0.281,-0.015,-0.167,0.720050000000047
2023-05-12 10:26:21.824050000,0,0.296,-0.029,-0.136,0.730050000000047
2023-05-12 10:26:21.834050000,0,0.294,-0.031,-0.14,0.740050000000047
2023-05-12 10:26:21.844050000,0,0.287,-0.031,-0.164,0.750050000000047
2023-05-12 10:26:21.854050000,0,0.279,0,-0.162,0.760050000000047
2023-05-12 10:26:21.864050000,0,0.287,0.019,-0.169,0.770050000000047
2023-05-12 10:26:21.874050000,0,0.267,0.039,-0.177,0.780050000000047
2023-05-12 10:26:21.884050000,0,0.25,0.046,-0.197,0.790050000000047
2023-05-12 10:26:21.894050000,0,0.244,0.037,-0.201,0.800050000000163
2023-05-12 10:26:21.904050000,0,0.226,0.011,-0.169,0.810050000000047
2023-05-12 10:26:21.914050000,0,0.222,-0.023,-0.164,0.820050000000047
2023-05-12 10:26:21.924050000,0,0.189,-0.05,-0.183,0.830050000000047
2023-05-12 10:26:21.934050000,0,0.167,-0.052,-0.167,0.840050000000047
2023-05-12 10:26:21.944050000,0,0.187,-0.05,-0.162,0.850050000000047
2023-05-12 10:26:21.954050000,0,0.171,0.003,-0.156,0.860050000000047
2023-05-12 10:26:21.964050000,0,0.13,0.031,-0.181,0.870050000000047
2023-05-12 10:26:21.974050000,0,0.136,0.046,-0.169,0.880050000000047
2023-05-12 10:26:21.984050000,0,0.136,0.05,-0.152,0.890050000000047
2023-05-12 10:26:21.994050000,0,0.126,0.041,-0.152,0.900050000000047
2023-05-12 10:26:22.004100000,0,0.087,0.019,-0.156,0.910100000000093
2023-05-12 10:26:22.014100000,0,0.066,-0.011,-0.152,0.920100000000093
2023-05-12 10:26:22.024100000,0,0.066,-0.031,-0.093,0.930100000000093
2023-05-12 10:26:22.034100000,0,0.052,-0.041,-0.103,0.940100000000093
2023-05-12 10:26:22.044100000,0,0.007,-0.039,-0.099,0.950100000000093
2023-05-12 10:26:22.054100000,0,-0.011,-0.007,-0.078,0.960100000000093
2023-05-12 10:26:22.064100000,0,-0.013,0.013,-0.068,0.970100000000093
2023-05-12 10:26:22.074050000,0,-0.035,0.037,-0.035,0.980050000000047
2023-05-12 10:26:22.084100000,0,-0.074,0.05,-0.044,0.990100000000093
2023-05-12 10:26:22.094099999,0,-0.107,0.05,-0.046,1.00009999999998
2023-05-12 10:26:22.104099999,0,-0.095,0.035,-0.013,1.01009999999998
2023-05-12 10:26:22.114050000,0,-0.093,0.013,0.001,1.02005000000005
2023-05-12 10:26:22.124100000,0,-0.134,-0.021,-0.021,1.03010000000009
2023-05-12 10:26:22.134100000,0,-0.146,-0.041,-0.015,1.04010000000009
2023-05-12 10:26:22.144050000,0,-0.128,-0.05,0.025,1.05005000000016
2023-05-12 10:26:22.154100000,0,-0.134,-0.039,0.023,1.06010000000009
2023-05-12 10:26:22.164100000,0,-0.171,-0.015,0.033,1.07010000000009
2023-05-12 10:26:22.174100000,0,-0.179,0.005,0.035,1.08010000000009
2023-05-12 10:26:22.184100000,0,-0.177,0.023,0.054,1.09010000000009
2023-05-12 10:26:22.194100000,0,-0.156,0.042,0.068,1.10010000000009
2023-05-12 10:26:22.204100000,0,-0.201,0.031,0.046,1.11010000000009
2023-05-12 10:26:22.214099999,0,-0.203,0.015,0.044,1.12009999999998
2023-05-12 10:26:22.224099999,0,-0.193,-0.003,0.076,1.13009999999998
2023-05-12 10:26:22.234099999,0,-0.191,-0.019,0.103,1.14009999999998
2023-05-12 10:26:22.244099999,0,-0.236,-0.035,0.091,1.15009999999998
2023-05-12 10:26:22.254100000,0,-0.226,-0.027,0.091,1.16010000000009
2023-05-12 10:26:22.264100000,0,-0.222,-0.015,0.134,1.17010000000009
2023-05-12 10:26:22.274100000,0,-0.216,0.009,0.134,1.18010000000009
2023-05-12 10:26:22.284100000,0,-0.222,0.035,0.099,1.19010000000009
2023-05-12 10:26:22.294100000,0,-0.226,0.039,0.107,1.20010000000009
2023-05-12 10:26:22.304100000,0,-0.21,0.035,0.109,1.21010000000009
2023-05-12 10:26:22.314100000,0,-0.164,0.009,0.123,1.22010000000009
2023-05-12 10:26:22.324100000,0,-0.191,-0.007,0.117,1.23010000000009
2023-05-12 10:26:22.334100000,0,-0.201,-0.029,0.109,1.24010000000009
2023-05-12 10:26:22.344099999,0,-0.154,-0.037,0.121,1.25009999999998
2023-05-12 10:26:22.354099999,0,-0.15,-0.029,0.136,1.26009999999998
2023-05-12 10:26:22.364099999,0,-0.132,-0.013,0.107,1.27009999999998
2023-05-12 10:26:22.374100000,0,-0.16,0.017,0.072,1.28010000000009
2023-05-12 10:26:22.384100000,0,-0.125,0.041,0.128,1.29010000000009
2023-05-12 10:26:22.394100000,0,-0.097,0.041,0.113,1.30010000000009
2023-05-12 10:26:22.404100000,0,-0.121,0.042,0.091,1.31010000000009
2023-05-12 10:26:22.414100000,0,-0.121,0.021,0.068,1.32010000000009
2023-05-12 10:26:22.424100000,0,-0.109,0.003,0.099,1.33010000000009
2023-05-12 10:26:22.434100000,0,-0.074,-0.011,0.101,1.34010000000009
2023-05-12 10:26:22.444100000,0,-0.087,-0.023,0.099,1.35010000000009
2023-05-12 10:26:22.454100000,0,-0.074,-0.046,0.072,1.36010000000009
2023-05-12 10:26:22.464099999,0,-0.048,-0.042,0.064,1.37009999999998
2023-05-12 10:26:22.474099999,0,-0.023,-0.025,0.056,1.38009999999998
2023-05-12 10:26:22.484099999,0,-0.029,-0.009,0.064,1.39009999999998
2023-05-12 10:26:22.494099999,0,-0.025,0.015,0.029,1.40009999999998
2023-05-12 10:26:22.504100000,0,-0.005,0.033,0.044,1.41010000000009
2023-05-12 10:26:22.514100000,0,0.029,0.046,0.041,1.42010000000009
2023-05-12 10:26:22.524100000,0,0.025,0.037,0.027,1.43010000000009
2023-05-12 10:26:22.534100000,0,0.017,0.029,0.003,1.44010000000009
2023-05-12 10:26:22.544100000,0,0.029,0.005,-0.001,1.45010000000009
2023-05-12 10:26:22.554100000,0,0.052,-0.011,0.023,1.46010000000009
2023-05-12 10:26:22.564100000,0,0.046,-0.035,0.005,1.47010000000009
2023-05-12 10:26:22.574100000,0,0.041,-0.048,-0.011,1.48010000000009
2023-05-12 10:26:22.584100000,0,0.052,-0.046,-0.017,1.49010000000009
2023-05-12 10:26:22.594099999,0,0.07,-0.023,0.025,1.50009999999998
2023-05-12 10:26:22.604099999,0,0.068,0.005,-0.001,1.51009999999998
2023-05-12 10:26:22.614099999,0,0.07,0.021,-0.052,1.52009999999998
2023-05-12 10:26:22.624100000,0,0.082,0.035,-0.029,1.53010000000009
2023-05-12 10:26:22.634100000,0,0.103,0.035,-0.023,1.54010000000009
