Time,gyro_accuracy,gyro_z,gyro_y,gyro_x,time
2023-05-12 10:22:29.652350000,0,0.71,0.037,-0.611,0
2023-05-12 10:22:29.662400000,0,0.662,0.039,-0.634,0.0100499999999302
2023-05-12 10:22:29.672350000,0,0.597,0.05,-0.623,0.02
2023-05-12 10:22:29.682350000,0,0.546,0.058,-0.589,0.03
2023-05-12 10:22:29.692400000,0,0.47,0.06,-0.574,0.0400499999999301
2023-05-12 10:22:29.702349999,0,0.458,0.05,-0.558,0.0499999999998836
2023-05-12 10:22:29.712349999,0,0.412,0.031,-0.535,0.0599999999998836
2023-05-12 10:22:29.722400000,0,0.371,0.013,-0.574,0.0700499999999302
2023-05-12 10:22:29.732400000,0,0.386,-0.003,-0.554,0.0800500000000466
2023-05-12 10:22:29.742349999,0,0.365,-0.023,-0.556,0.0899999999998836
2023-05-12 10:22:29.752400000,0,0.291,-0.033,-0.49,0.10004999999993
2023-05-12 10:22:29.762400000,0,0.23,-0.015,-0.447,0.11004999999993
2023-05-12 10:22:29.772350000,0,0.123,-0.003,-0.419,0.12
2023-05-12 10:22:29.782400000,0,0.058,0.019,-0.375,0.13004999999993
2023-05-12 10:22:29.792400000,0,0.017,0.021,-0.265,0.14004999999993
2023-05-12 10:22:29.802350000,0,-0.115,0.025,-0.261,0.15
2023-05-12 10:22:29.812400000,0,-0.175,0.007,-0.242,0.16004999999993
2023-05-12 10:22:29.822400000,0,-0.193,-0.005,-0.183,0.17004999999993
2023-05-12 10:22:29.832400000,0,-0.281,-0.005,-0.158,0.18004999999993
2023-05-12 10:22:29.842400000,0,-0.302,-0.025,-0.16,0.19004999999993
2023-05-12 10:22:29.852400000,0,-0.312,-0.023,-0.089,0.20004999999993
2023-05-12 10:22:29.862349999,0,-0.351,0.005,-0.093,0.209999999999884
2023-05-12 10:22:29.872400000,0,-0.365,0.041,-0.031,0.220050000000047
2023-05-12 10:22:29.882400000,0,-0.347,0.054,-0.023,0.23004999999993
2023-05-12 10:22:29.892400000,0,-0.38,0.07,-0.005,0.24004999999993
2023-05-12 10:22:29.902350000,0,-0.371,0.06,0.021,0.25
2023-05-12 10:22:29.912400000,0,-0.367,0.025,0.041,0.26004999999993
2023-05-12 10:22:29.922400000,0,-0.423,0.011,0.085,0.27004999999993
2023-05-12 10:22:29.932350000,0,-0.437,-0.015,0.123,0.28
2023-05-12 10:22:29.942400000,0,-0.478,-0.021,0.177,0.29004999999993
2023-05-12 10:22:29.952400000,0,-0.523,-0.019,0.203,0.30004999999993
2023-05-12 10:22:29.962349999,0,-0.535,-0.003,0.265,0.309999999999884
2023-05-12 10:22:29.972400000,0,-0.597,0.031,0.291,0.32004999999993
2023-05-12 10:22:29.982400000,0,-0.642,0.05,0.335,0.330050000000047
2023-05-12 10:22:29.992349999,0,-0.607,0.046,0.382,0.339999999999884
2023-05-12 10:22:30.002400000,0,-0.642,0.042,0.398,0.35004999999993
2023-05-12 10:22:30.012400000,0,-0.638,0.029,0.373,0.36004999999993
2023-05-12 10:22:30.022400000,0,-0.566,-0.007,0.4,0.37004999999993
2023-05-12 10:22:30.032400000,0,-0.57,-0.027,0.445,0.38004999999993
2023-05-12 10:22:30.042400000,0,-0.55,-0.021,0.402,0.39004999999993
2023-05-12 10:22:30.052400000,0,-0.474,-0.037,0.425,0.40004999999993
2023-05-12 10:22:30.062400000,0,-0.451,-0.033,0.421,0.41004999999993
2023-05-12 10:22:30.072400000,0,-0.412,-0.005,0.398,0.42004999999993
2023-05-12 10:22:30.082449999,0,-0.382,0.015,0.423,0.43009999999986
2023-05-12 10:22:30.092400000,0,-0.38,0.035,0.433,0.44004999999993
2023-05-12 10:22:30.102400000,0,-0.359,0.042,0.458,0.45004999999993
2023-05-12 10:22:30.112400000,0,-0.332,0.035,0.443,0.460050000000047
2023-05-12 10:22:30.122400000,0,-0.357,0.001,0.447,0.470050000000047
2023-05-12 10:22:30.132400000,0,-0.304,-0.031,0.462,0.48004999999993
2023-05-12 10:22:30.142450000,0,-0.291,-0.044,0.46,0.490099999999977
2023-05-12 10:22:30.152400000,0,-0.318,-0.06,0.445,0.50004999999993
2023-05-12 10:22:30.162400000,0,-0.251,-0.068,0.457,0.51004999999993
2023-05-12 10:22:30.172400000,0,-0.207,-0.042,0.439,0.52004999999993
2023-05-12 10:22:30.182400000,0,-0.179,-0.019,0.392,0.53004999999993
2023-05-12 10:22:30.192400000,0,-0.093,0.007,0.39,0.54004999999993
2023-05-12 10:22:30.202400000,0,-0.046,0.029,0.349,0.55004999999993
2023-05-12 10:22:30.212400000,0,-0.015,0.046,0.296,0.56004999999993
2023-05-12 10:22:30.222400000,0,0.082,0.039,0.324,0.57004999999993
2023-05-12 10:22:30.232400000,0,0.107,0.017,0.269,0.580050000000047
2023-05-12 10:22:30.242450000,0,0.132,-0.005,0.222,0.590099999999977
2023-05-12 10:22:30.252400000,0,0.201,-0.025,0.244,0.60004999999993
2023-05-12 10:22:30.262400000,0,0.212,-0.039,0.218,0.61004999999993
2023-05-12 10:22:30.272450000,0,0.205,-0.019,0.183,0.620099999999977
2023-05-12 10:22:30.282400000,0,0.267,-0.005,0.175,0.63004999999993
2023-05-12 10:22:30.292400000,0,0.253,0.011,0.136,0.64004999999993
2023-05-12 10:22:30.302450000,0,0.279,0.027,0.117,0.650099999999977
2023-05-12 10:22:30.312400000,0,0.328,0.023,0.091,0.66004999999993
2023-05-12 10:22:30.322400000,0,0.306,0.035,0.056,0.67004999999993
2023-05-12 10:22:30.332449999,0,0.335,0.031,0.041,0.68009999999986
2023-05-12 10:22:30.342400000,0,0.39,0.023,0.003,0.69004999999993
2023-05-12 10:22:30.352400000,0,0.39,0,-0.027,0.70004999999993
2023-05-12 10:22:30.362450000,0,0.449,-0.003,-0.068,0.710099999999977
2023-05-12 10:22:30.372450000,0,0.496,-0.005,-0.097,0.720099999999977
2023-05-12 10:22:30.382400000,0,0.498,0.013,-0.123,0.73004999999993
2023-05-12 10:22:30.392450000,0,0.523,0.039,-0.16,0.740099999999977
2023-05-12 10:22:30.402450000,0,0.56,0.058,-0.185,0.750099999999977
2023-05-12 10:22:30.412400000,0,0.533,0.066,-0.22,0.76004999999993
2023-05-12 10:22:30.422400000,0,0.58,0.085,-0.21,0.77004999999993
2023-05-12 10:22:30.432450000,0,0.558,0.085,-0.259,0.780099999999977
2023-05-12 10:22:30.442400000,0,0.535,0.066,-0.281,0.79004999999993
2023-05-12 10:22:30.452400000,0,0.542,0.048,-0.263,0.80004999999993
2023-05-12 10:22:30.462400000,0,0.519,0.029,-0.292,0.81004999999993
2023-05-12 10:22:30.472400000,0,0.488,0.001,-0.312,0.82004999999993
2023-05-12 10:22:30.482400000,0,0.513,-0.015,-0.287,0.830050000000047
2023-05-12 10:22:30.492450000,0,0.474,0,-0.32,0.840099999999977
2023-05-12 10:22:30.502400000,0,0.445,0.023,-0.328,0.85004999999993
2023-05-12 10:22:30.512400000,0,0.451,0.05,-0.335,0.86004999999993
2023-05-12 10:22:30.522450000,0,0.425,0.07,-0.335,0.870099999999977
2023-05-12 10:22:30.532400000,0,0.425,0.07,-0.359,0.88004999999993
2023-05-12 10:22:30.542400000,0,0.431,0.058,-0.349,0.89004999999993
2023-05-12 10:22:30.552450000,0,0.376,0.035,-0.371,0.900099999999977
2023-05-12 10:22:30.562400000,0,0.378,0.009,-0.363,0.91004999999993
2023-05-12 10:22:30.572400000,0,0.378,-0.009,-0.353,0.92004999999993
2023-05-12 10:22:30.582449999,0,0.324,-0.031,-0.359,0.93009999999986
2023-05-12 10:22:30.592450000,0,0.306,-0.029,-0.349,0.940099999999977
2023-05-12 10:22:30.602400000,0,0.287,-0.007,-0.337,0.95004999999993
2023-05-12 10:22:30.612450000,0,0.218,0.019,-0.306,0.960099999999977
2023-05-12 10:22:30.622400000,0,0.216,0.023,-0.332,0.970050000000047
2023-05-12 10:22:30.632400000,0,0.177,0.039,-0.3,0.98004999999993
2023-05-12 10:22:30.642450000,0,0.119,0.042,-0.289,0.990099999999977
2023-05-12 10:22:30.652450000,0,0.117,0.031,-0.265,1.00009999999998
2023-05-12 10:22:30.662400000,0,0.068,0.019,-0.265,1.01004999999993
2023-05-12 10:22:30.672400000,0,0.023,0.005,-0.248,1.02004999999993
2023-05-12 10:22:30.682450000,0,0.009,0.007,-0.205,1.03009999999998
2023-05-12 10:22:30.692449999,0,-0.023,-0.003,-0.22,1.04009999999986
2023-05-12 10:22:30.702400000,0,-0.039,-0.015,-0.207,1.05004999999993
2023-05-12 10:22:30.712449999,0,-0.027,-0.005,-0.162,1.06009999999986
2023-05-12 10:22:30.722450000,0,-0.095,-0.009,-0.177,1.07009999999998
2023-05-12 10:22:30.732400000,0,-0.125,-0.005,-0.136,1.08005000000005
2023-05-12 10:22:30.742450000,0,-0.095,0.005,-0.091,1.09009999999998
2023-05-12 10:22:30.752400000,0,-0.144,0.017,-0.095,1.10004999999993
2023-05-12 10:22:30.762400000,0,-0.156,0.007,-0.111,1.11004999999993
2023-05-12 10:22:30.772450000,0,-0.166,0.003,-0.062,1.12009999999998
2023-05-12 10:22:30.782450000,0,-0.216,0.023,-0.041,1.13009999999998
2023-05-12 10:22:30.792400000,0,-0.226,0.019,-0.019,1.14004999999993
2023-05-12 10:22:30.802450000,0,-0.242,0.021,-0.001,1.15009999999998
2023-05-12 10:22:30.812450000,0,-0.308,0.023,0.019,1.16009999999998
2023-05-12 10:22:30.822400000,0,-0.279,0.013,0.058,1.17004999999993
2023-05-12 10:22:30.832449999,0,-0.3,0,0.099,1.18009999999986
2023-05-12 10:22:30.842450000,0,-0.349,0.013,0.113,1.19009999999998
2023-05-12 10:22:30.852400000,0,-0.337,0.003,0.111,1.20004999999993
2023-05-12 10:22:30.862450000,0,-0.324,-0.009,0.156,1.21009999999998
2023-05-12 10:22:30.872450000,0,-0.353,-0.031,0.138,1.22009999999998
2023-05-12 10:22:30.882400000,0,-0.322,-0.033,0.15,1.23004999999993
2023-05-12 10:22:30.892450000,0,-0.312,-0.035,0.164,1.24009999999998
2023-05-12 10:22:30.902450000,0,-0.349,0.001,0.177,1.25009999999998
2023-05-12 10:22:30.912400000,0,-0.333,0.019,0.207,1.26004999999993
2023-05-12 10:22:30.922400000,0,-0.332,0.015,0.224,1.27004999999993
2023-05-12 10:22:30.932450000,0,-0.337,0.021,0.226,1.28009999999998
2023-05-12 10:22:30.942449999,0,-0.318,0.019,0.23,1.29009999999986
2023-05-12 10:22:30.952400000,0,-0.302,0.007,0.24,1.30004999999993
2023-05-12 10:22:30.962449999,0,-0.318,-0.001,0.251,1.31009999999986
2023-05-12 10:22:30.972450000,0,-0.296,-0.021,0.269,1.32009999999998
2023-05-12 10:22:30.982400000,0,-0.283,-0.046,0.242,1.33005000000005
2023-05-12 10:22:30.992450000,0,-0.267,-0.035,0.259,1.34009999999998
2023-05-12 10:22:31.002450000,0,-0.226,-0.015,0.253,1.35009999999998
2023-05-12 10:22:31.012450000,0,-0.242,0.003,0.242,1.36009999999998
2023-05-12 10:22:31.022450000,0,-0.216,0.015,0.259,1.37009999999998
2023-05-12 10:22:31.032450000,0,-0.193,0.031,0.275,1.38009999999998
2023-05-12 10:22:31.042450000,0,-0.183,0.021,0.232,1.39009999999998
2023-05-12 10:22:31.052450000,0,-0.146,-0.011,0.251,1.40009999999998
2023-05-12 10:22:31.062450000,0,-0.099,-0.033,0.263,1.41009999999998
2023-05-12 10:22:31.072500000,0,-0.119,-0.037,0.216,1.42014999999991
2023-05-12 10:22:31.082449999,0,-0.082,-0.042,0.214,1.43009999999986
2023-05-12 10:22:31.092450000,0,-0.048,-0.023,0.222,1.44009999999998
2023-05-12 10:22:31.102500000,0,-0.044,-0.007,0.179,1.45015000000002
2023-05-12 10:22:31.112450000,0,-0.015,0.007,0.199,1.46009999999998
2023-05-12 10:22:31.122450000,0,0.001,0.017,0.181,1.47009999999998
2023-05-12 10:22:31.132500000,0,-0.009,0.019,0.162,1.48014999999991
2023-05-12 10:22:31.142450000,0,0.027,0.003,0.175,1.49009999999998
2023-05-12 10:22:31.152450000,0,0.042,-0.019,0.162,1.50009999999998
2023-05-12 10:22:31.162500000,0,0.042,-0.037,0.132,1.51014999999991
2023-05-12 10:22:31.172450000,0,0.097,-0.05,0.111,1.52009999999998
2023-05-12 10:22:31.182450000,0,0.119,-0.039,0.107,1.53009999999998
2023-05-12 10:22:31.192449999,0,0.115,-0.017,0.082,1.54009999999986
2023-05-12 10:22:31.202449999,0,0.175,0.001,0.054,1.55009999999986
2023-05-12 10:22:31.212449999,0,0.179,0.009,0.025,1.56009999999986
2023-05-12 10:22:31.222450000,0,0.207,0.041,0.025,1.57009999999998
2023-05-12 10:22:31.232450000,0,0.238,0.033,-0.015,1.58009999999998
2023-05-12 10:22:31.242450000,0,0.226,0.041,-0.021,1.59009999999998
2023-05-12 10:22:31.252450000,0,0.228,0.031,-0.027,1.60009999999998
2023-05-12 10:22:31.262450000,0,0.255,0.025,-0.029,1.61009999999998
2023-05-12 10:22:31.272450000,0,0.234,0,-0.074,1.62009999999998
2023-05-12 10:22:31.282450000,0,0.263,0,-0.07,1.63009999999998
2023-05-12 10:22:31.292500000,0,0.267,-0.009,-0.082,1.64014999999991
2023-05-12 10:22:31.302450000,0,0.248,-0.019,-0.099,1.65009999999998
2023-05-12 10:22:31.312450000,0,0.271,-0.015,-0.105,1.66009999999998
2023-05-12 10:22:31.322500000,0,0.283,0,-0.115,1.67014999999991
2023-05-12 10:22:31.332449999,0,0.275,0.011,-0.154,1.68009999999986
2023-05-12 10:22:31.342450000,0,0.31,0.025,-0.148,1.69009999999998
2023-05-12 10:22:31.352500000,0,0.304,0.046,-0.162,1.70015000000002
2023-05-12 10:22:31.362450000,0,0.263,0.05,-0.208,1.71009999999998
2023-05-12 10:22:31.372450000,0,0.298,0.064,-0.16,1.72009999999998
2023-05-12 10:22:31.382500000,0,0.285,0.046,-0.183,1.73014999999991
2023-05-12 10:22:31.392450000,0,0.275,0.027,-0.218,1.74009999999998
2023-05-12 10:22:31.402450000,0,0.296,0.005,-0.208,1.75009999999998
2023-05-12 10:22:31.412500000,0,0.279,-0.015,-0.228,1.76014999999991
2023-05-12 10:22:31.422500000,0,0.267,-0.001,-0.234,1.77014999999991
2023-05-12 10:22:31.432450000,0,0.296,-0.003,-0.267,1.78009999999998
2023-05-12 10:22:31.442449999,0,0.291,-0.019,-0.269,1.79009999999986
2023-05-12 10:22:31.452449999,0,0.283,-0.017,-0.314,1.80009999999986
2023-05-12 10:22:31.462449999,0,0.302,-0.021,-0.318,1.81009999999986
2023-05-12 10:22:31.472450000,0,0.271,0.011,-0.328,1.82009999999998
2023-05-12 10:22:31.482500000,0,0.261,0.042,-0.333,1.83015000000002
2023-05-12 10:22:31.492450000,0,0.234,0.046,-0.335,1.84009999999998
2023-05-12 10:22:31.502450000,0,0.21,0.029,-0.339,1.85009999999998
2023-05-12 10:22:31.512499999,0,0.201,0.025,-0.339,1.86014999999991
2023-05-12 10:22:31.522450000,0,0.191,0,-0.363,1.87009999999998
2023-05-12 10:22:31.532450000,0,0.16,-0.007,-0.363,1.88009999999998
2023-05-12 10:22:31.542500000,0,0.167,-0.015,-0.355,1.89014999999991
2023-05-12 10:22:31.552450000,0,0.146,-0.027,-0.367,1.90009999999998
2023-05-12 10:22:31.562450000,0,0.119,-0.023,-0.378,1.91009999999998
2023-05-12 10:22:31.572500000,0,0.144,-0.003,-0.369,1.92014999999991
2023-05-12 10:22:31.582500000,0,0.15,0.021,-0.361,1.93015000000002
2023-05-12 10:22:31.592450000,0,0.078,0.015,-0.427,1.94009999999998
2023-05-12 10:22:31.602500000,0,0.138,0.052,-0.353,1.95015000000002
